Folder: ML-MCC-FR-analysis/5_Final_report_codes/final_model/data

Note: README.md
# ChBE Machine Learning Project
Project Introduction: https://youtu.be/1iUGmVvUGN8

File: MCC_raw.csv
Adhesive-1-1,,,Adhesive-2-1,,,Adhesive-3-1,,,Adhesive-4-1,,,Adhesive-5-1,,,Adhesive-6-1,,,Adhesive-7-1,,,Adhesive-8-1,,,Adhesive-9-1,,,Adhesive-10-1,,,Adhesive-11-1,,,Adhesive-12-1,,,Adhesive-13-1,,,Adhesive-14-1,,,Adhesive-15-1,,,Adhesive-16-1,,,Adhesive-17-1,,,Adhesive-18-1,,,Adhesive-19-1,,,Adhesive 20-1,,,Adhesive 21-1,,,Adhesive-22-1,,,Fiber-FR-1,,,Fiber-FR-2,,,Fiber-FR-3,,,Fiber-FR-4,,,Fiber-FR-5 ,,,Fiber-FR-6,,,Fiber-FR-7 ,,,Fiber-FR-8,,,Fiber-FR-9,,,Fiber-FR-10,,,Fiber-FR-11,,,Fiber-FR-12,,,Fiber-FR-13,,,Fiber-FR-14,,,Fiber-FR-15,,,Fiber-FR-16,,,Fiber-17,,,Fiber-18,,,Fiber-19,,
Temperature (C),HRR (W/g),Heating Rate (C/s),Temperature (C),HRR (W/g),Heating Rate (C/s),Temperature (C),HRR (W/g),Heating Rate (C/s),Temperature (C),HRR (W/g),Heating Rate (C/s),Temperature (C),HRR (W/g),Heating Rate (C/s),Temperature (C),HRR (W/g),Heating Rate (C/s),Temperature (C),HRR (W/g),Heating Rate (C/s),Temperature (C),HRR (W/g),Heating Rate (C/s),Temperature (C),HRR (W/g),Heating Rate (C/s),Temperature (C),HRR (W/g),Heating Rate (C/s),Temperature (C),HRR (W/g),Heating Rate (C/s),Temperature (C),HRR (W/g),Heating Rate (C/s),Temperature (C),HRR (W/g),Heating Rate (C/s),Temperature (C),HRR (W/g),Heating Rate (C/s),Temperature (C),HRR (W/g),Heating Rate (C/s),Temperature (C),HRR (W/g),Heating Rate (C/s),Temperature (C),HRR (W/g),Heating Rate (C/s),Temperature (C),HRR (W/g),Heating Rate (C/s),Temperature (C),HRR (W/g),Heating Rate (C/s),Temperature (C),HRR (W/g),Heating Rate (C/s),Temperature (C),HRR (W/g),Heating Rate (C/s),Temperature (C),HRR (W/g),Heating Rate (C/s),Temperature (C),HRR (W/g),Heating Rate (C/s),Temperature (C),HRR (W/g),Heating Rate (C/s),Temperature (C),HRR (W/g),Heating Rate (C/s),Temperature (C),HRR (W/g),Heating Rate (C/s),Temperature (C),HRR (W/g),Heating Rate (C/s),Temperature (C),HRR (W/g),Heating Rate (C/s),Temperature (C),HRR (W/g),Heating Rate (C/s),Temperature (C),HRR (W/g),Heating Rate (C/s),Temperature (C),HRR (W/g),Heating Rate (C/s),Temperature (C),HRR (W/g),Heating Rate (C/s),Temperature (C),HRR (W/g),Heating Rate (C/s),Temperature (C),HRR (W/g),Heating Rate (C/s),Temperature (C),HRR (W/g),Heating Rate (C/s),Temperature (C),HRR (W/g),Heating Rate (C/s),Temperature (C),HRR (W/g),Heating Rate (C/s),Temperature (C),HRR (W/g),Heating Rate (C/s),Temperature (C),HRR (W/g),Heating Rate (C/s),Temperature (C),HRR (W/g),Heating Rate (C/s),Temperature (C),HRR (W/g),Heating Rate (C/s)
73.744,4.57,0.084,74.63,5.286,0.067,74.621,4.898,0.061,74.539,9.743,-0.061,74.815,1.81,0.06,75.161,-3.166,0.07,75.574,-0.01,-0.01,74.589,2.433,0.069,75.411,6.165,0,75.404,7.255,-0.03,74.661,4.545,0.101,75.317,-0.351,0.024,74.712,2.604,0.056,75.496,-1.244,0.017,74.752,3.697,0.04,75.333,-3.103,0.009,74.903,2.29,0.029,74.633,2.516,0.045,74.778,0.191,0.048,75.272,6.343,-0.071,74.973,4.62,0.403,74.028,6.484,0.028,75.321,7.514,0.024,75.349,4.374,-0.022,75.298,4.888,-0.021,75.383,4.706,-0.025,75.114,5.11,-0.063,75.343,2.057,-0.011,75.377,5.171,-0.048,73.757,9.509,-0.09,75.288,5.494,-0.039,74.736,7.92,-0.05,75.393,0.649,0.052,74.683,3.965,0.036,73.755,5.755,-0.001,74.602,4.644,0.029,74.629,4.341,0.05,75.068,6.004,-0.034,73.866,4.474,0.016,74.566,5.061,0.04,73.599,5.051,-0.007
105.73,9.673,0.774,107.49,25.483,0.801,107.699,10.056,0.776,104.184,14.745,0.786,105.384,7.914,0.786,105.326,7.974,0.713,104.149,13.618,0.756,105.62,10.121,0.774,106.388,19.53,0.776,104.617,19.642,0.773,107.597,7.884,0.844,107.16,11.726,0.774,105.327,8.195,0.757,104.234,10.804,0.748,105.713,11.201,0.806,104.82,9.994,0.748,106.118,11.092,0.77,105.457,9.379,0.764,106.013,5.178,0.773,103.132,15.779,0.749,117.864,7.713,0.905,106.368,10.027,0.767,98.881,19.648,0.627,97.608,10.355,0.654,97.619,12.083,0.625,97.648,11.328,0.634,100.327,13.179,0.69,99.718,8.153,0.653,97.82,10.844,0.627,95.235,12.85,0.654,97.531,12.372,0.611,97.707,12.559,0.633,100.033,8.038,0.655,101.375,6.361,0.682,96.572,7.964,0.666,106.904,7.8,0.802,101.376,7.117,0.692,103.685,13.982,0.745,105.529,7.389,0.802,106.525,8.315,0.772,106.109,8.528,0.775
154.751,9.147,0.844,157.29,21.79,0.889,157.547,19.656,0.875,152.687,13.863,0.848,153.687,6.865,0.832,153.759,6.819,0.864,151.953,12.917,0.836,154.107,16.482,0.874,155.798,19.999,0.857,153.232,18.829,0.907,157.22,7.532,0.834,156.745,10.227,0.91,153.798,7.315,0.885,152.127,9.599,0.844,154.428,10.53,0.914,152.929,10.189,0.88,154.823,10.608,0.822,154.079,8.55,0.864,155.2,4.613,0.886,150.876,15.413,0.869,169.891,7.367,0.97,155.926,8.905,0.845,142.021,19.698,0.802,140.261,9.448,0.807,140.472,10.963,0.813,140.421,11.387,0.789,146.194,13.25,0.852,143.364,7.482,0.779,141.41,10.571,0.798,138.012,12.811,0.798,140.455,11.034,0.831,140.811,11.165,0.807,143.72,7.312,0.821,145.875,5.874,0.799,139.716,7.356,0.879,156.251,6.894,0.886,145.816,6.499,0.815,152.246,13.043,0.88,154.825,6.596,0.885,155.651,7.373,0.881,155.35,7.747,0.883
214.212,8.077,0.989,216.568,12.79,1.104,216.9,9.509,1.076,211.946,11.886,1.069,212.928,5.473,1.036,213.071,6.541,0.996,211.279,10.912,1.013,213.447,20.247,1.066,215.093,19.365,1.081,212.475,17.776,1.049,216.471,6.502,1.019,215.944,8.947,1.035,213.084,5.126,0.998,211.56,8.802,1.041,213.71,9.025,1.013,212.219,6.777,1.087,214.07,9.485,1.05,213.402,7.29,1.007,214.518,3.387,1.062,210.205,14.384,1.108,228.967,8.133,1.037,215.201,9.334,1.042,200.575,16.822,1.086,198.746,8.215,1.053,199.113,8.833,1.065,199.162,8.9,1.117,205.095,11.748,1.042,201.97,6.055,1.092,200.149,9.651,1.08,196.721,11.7,1.091,199.125,9.252,1.113,199.433,9.394,1.089,202.346,4.919,1.116,204.456,4.382,1.097,198.308,5.66,1.063,215.433,5.202,1.033,204.441,5.138,1.101,211.544,10.059,1.029,214.045,5.469,1.03,214.957,4.619,1.057,214.662,6.242,1.067
273.922,7.502,0.998,276.508,9.109,1.03,276.873,17.879,0.982,272.096,10.442,0.964,273.294,3.075,0.992,273.457,10.765,1.028,271.732,11.484,0.985,273.824,17.942,0.954,275.015,21.232,0.988,272.639,16.479,0.968,276.559,6.324,0.975,275.995,8.049,0.999,273.364,11.918,0.988,271.649,11.269,0.978,273.977,13.999,0.98,272.504,7.175,0.981,274.411,10.464,0.994,273.565,6.336,0.996,274.627,3.641,0.963,270.373,14.729,1.007,288.793,11.85,1.009,275.263,9.518,0.978,262.393,13.987,0.971,260.833,7.92,1.009,261.039,6.684,0.972,260.996,8.249,1.003,265.768,12.44,0.975,263.743,4.946,0.986,261.868,8.006,0.989,258.561,10.571,0.96,261.006,8.325,0.989,261.321,7.938,1.011,264.105,3.341,1.019,266.063,3.751,0.983,260.171,5.168,0.969,275.51,7.509,1.001,266.046,3.413,0.957,271.681,7.684,0.954,274.165,3.075,0.984,275.327,2.271,0.989,274.813,5.607,0.994
333.821,164.846,1.007,336.249,7.059,1.041,336.588,76.529,1.013,331.735,11.276,1.002,332.802,29.824,1.057,332.534,37.402,1.049,331.211,50.621,1.048,333.26,50.124,0.979,334.539,420.189,0.997,332.174,156.88,0.981,336.061,182.008,0.995,335.599,161.215,0.997,332.935,129.827,0.985,331.345,38.7,0.996,333.514,123.389,1.003,331.827,10.436,1.004,334.063,64.414,1.017,333.203,21.212,1.032,334.376,15.925,1.024,329.943,107.663,1.021,348.426,26.938,0.988,334.967,31.023,1.03,321.187,15.52,0.994,319.544,61.94,0.992,319.742,77.67,0.996,319.808,80.778,1.051,325.115,106.591,1.015,322.481,86.35,0.969,320.893,8.84,1.029,317.342,65.184,0.994,319.749,80.034,1.025,320.084,71.88,1.043,322.887,64.711,1.014,324.868,35.468,1.018,318.878,68.406,1.043,335.127,64.171,1.036,324.965,4.861,1.018,331.212,5.723,0.975,333.727,1.896,1.003,334.69,0.763,0.972,334.368,12.566,1.03
394.123,145.437,1.057,396.431,77.281,1.013,396.889,59.947,1.082,391.944,195.623,1.049,392.987,378.205,1.047,393.273,30.719,1.074,391.434,316.254,1.021,393.623,174.236,1.087,395.171,36.111,1.014,392.327,68.601,1.035,396.301,55.119,1.057,395.799,58.27,1.098,393.21,110.078,1.053,391.52,123.269,0.978,393.679,135.857,0.99,392.478,116.588,1.045,394.037,281.204,0.987,393.31,261.973,0.999,394.592,154.303,1.025,390.147,103.099,1.006,408.733,116.733,0.971,395.11,178.761,0.984,381.812,49.45,1.009,380.057,72.503,0.976,380.3,64.144,0.993,380.175,65.613,1.033,385.56,135.612,1.011,383.093,68.638,1.044,381.15,17.047,0.963,377.891,31.195,1.006,380.283,60.315,1.024,380.554,64.513,0.999,383.328,66.171,0.961,385.322,91.517,1.035,379.336,81.382,0.998,395.223,11.073,1.05,385.459,48.729,1.024,391.402,9.719,0.992,393.846,7.787,1.012,394.881,0.312,1.038,394.525,26.76,0.993
453.903,130.593,1.003,456.316,131.181,1.016,456.725,85.162,0.973,451.946,220.908,0.96,453.086,105.604,1.037,453.086,34.484,1.043,451.467,98.635,1.095,453.488,32.808,0.992,454.812,23.923,0.968,452.329,35.453,0.993,456.213,26.67,0.993,455.71,25.903,0.994,453.119,58.129,0.963,451.574,21.23,1.016,453.513,72.372,1.006,452.149,123.961,1.009,454.02,85.721,0.931,453.307,80.926,1.039,454.349,108.776,1.002,450.221,97.125,1.015,468.595,13.407,1.029,455.167,14.858,0.991,441.622,277.77,1.024,440.04,65.84,1.031,440.243,51.056,1.001,440.284,53.362,1.084,445.915,21.934,1.012,443.139,40.631,1.048,441.375,116.265,1.006,437.857,146.622,1.038,440.315,55.492,1.009,440.635,41.344,1.01,443.415,40.775,1,445.436,49.914,1.018,439.442,30.993,1.039,455.234,4.653,1.006,445.074,201.353,1.004,451.725,310.721,1.007,454.016,371.208,1.014,454.929,1.575,1.052,454.569,43.017,1.033
514.282,13.488,0.988,516.552,28.11,1.04,517.001,25.549,1.013,512.169,13.766,1.019,513.213,5.284,0.982,513.361,12.381,0.988,511.622,13.005,1.02,513.749,14.691,0.985,515.184,14.037,1.001,512.59,14.619,1.021,516.488,5.954,1.034,515.959,6.369,0.945,513.342,24.917,0.995,511.782,11.754,1.035,513.873,6.381,1.011,512.454,20.45,1.028,514.394,22.291,0.993,513.486,13.221,1.006,514.782,16.161,0.965,510.392,13.896,0.993,529.027,7.053,1,515.414,6.034,1.005,502.054,28.126,1.047,500.285,17.991,1.031,500.586,14.706,1.024,500.438,19.829,0.988,505.695,25.538,0.954,503.34,17.155,1.044,501.575,66.479,1.023,498.094,19.014,1.018,500.531,26.41,0.993,500.804,26.604,1.011,503.55,23.66,1.028,505.624,33.851,0.985,499.665,20.796,1.04,515.458,-0.12,0.98,505.723,20.313,0.981,511.755,9.002,1.037,514.159,4.298,1.008,515.23,43.434,0.997,514.723,109.646,1.011
574.512,2.195,1.004,576.667,9.388,1.014,576.934,-0.761,1.022,572.312,6.08,1.003,573.421,-3.006,0.992,573.479,2.387,0.998,571.749,8.376,0.965,573.807,7.806,0.978,575.249,7.157,0.994,572.759,7.119,0.972,576.605,-0.959,0.985,576.143,-1.977,0.988,573.613,2.701,1.031,571.912,7.171,1.017,573.997,0.926,1.031,572.689,8.715,1.023,574.558,8.372,0.987,573.701,5.499,1.017,574.726,0.501,1.043,570.642,4.469,0.996,588.877,3.748,0.995,575.32,2.092,0.951,562.332,36.567,1.028,560.611,8.029,1.022,560.848,6.418,0.988,560.772,7.581,0.99,566.385,10.873,0.966,563.622,6.577,1.049,561.944,33.929,1.004,558.346,13.414,1.009,560.877,10.002,1.035,561.096,8.193,1.016,563.914,3.353,1.037,566.049,7.342,1.093,559.796,3.972,0.998,575.785,-1.486,1.016,566.016,20.25,1.012,571.915,3.263,0.97,574.392,1.594,1.003,575.194,187.177,1.033,575.031,35.186,1.006
633.994,0.347,1.016,636.158,-0.866,0.983,636.46,-4.499,1.009,631.931,5.038,0.974,632.929,-3.888,1.007,632.949,0.42,0.966,631.358,8.973,1.023,633.421,6.897,1.037,634.922,4.902,0.994,632.393,4.85,0.969,636.099,-2.907,0.986,635.703,-2.645,1.043,633.141,-1.668,1.047,631.482,2.886,1.021,633.651,-0.244,1.007,632.322,1.12,1.011,634.001,6.104,1.021,633.308,0.467,0.986,634.225,-3.473,1.001,630.152,2.601,0.993,648.575,3.173,1.059,634.986,0.474,0.992,622.527,12.504,0.982,620.823,3.283,1.018,621.031,1.867,1.034,621.082,2.337,1.04,626.022,8.359,0.989,623.76,2.524,1.041,621.784,11.411,1.016,618.541,8.717,1.006,620.888,4.371,1.037,621.318,2.366,0.999,624.098,-2.314,0.986,626.204,1.629,1.04,620.075,-0.185,1.066,635.197,-2.923,1.005,626.027,3.644,0.971,631.459,3.32,1.015,633.942,1.16,1.016,634.677,11.833,0.977,634.545,4.013,0.995
694.209,-0.06,0.998,696.464,-3.961,0.957,696.863,-5.936,1.012,692.247,4.358,1.037,693.137,-4.148,0.97,693.354,-1.52,1.06,691.713,7.39,0.98,693.651,5.802,1.054,695.079,5.172,0.987,692.36,5.007,0.96,696.332,-3.627,0.952,695.842,-3.331,0.989,693.23,-2.947,1.018,691.494,1.3,1.014,693.695,-1.87,0.976,692.307,-1.178,0.96,694.299,5.408,1.034,693.262,-0.962,1.033,694.649,-3.347,1.017,690.197,1.831,1.003,708.941,2.306,0.983,695.408,0.017,0.997,682.153,10.139,0.985,680.319,1.239,1.001,680.52,0.173,1.036,680.565,0.903,0.961,686.02,7.325,1.018,683.364,1.076,1.006,681.58,7.109,0.978,678.165,6.282,1.01,680.725,2.434,0.986,680.924,-0.097,1.017,683.666,-4.232,1.057,685.706,0.023,1.028,679.663,-2.346,0.951,695.398,-3.551,0.997,685.768,1.615,1.069,691.897,1.357,0.981,694.252,-0.596,1.025,695.143,3.235,1.051,694.851,3.891,1.023
,,,,,,,,,752.472,0,0.96,753.505,0,1.005,753.437,0,1.049,752.262,0,0.994,,,,,,,752.749,0,0.993,,,,,,,753.732,0,1.061,751.908,0,1.028,,,,752.783,0,1.047,,,,753.733,0,0.975,,,,750.542,0,1.029,,,,,,,742.662,10.349,1.022,740.537,0.664,1.02,740.822,-0.584,0.982,740.728,0.538,1.03,746.469,0,1.01,743.545,0,0.986,742.185,6.345,1.038,738.26,5.645,0.993,740.759,2.054,0.963,741.085,-0.138,1.011,743.929,0,1.028,745.971,0,1.006,739.798,-2.218,0.997,,,,746.201,0,1.009,752.417,0,0.983,,,,,,,,,
,,,,,,,,,,,,,,,,,,,,,,,,,,,,,,,,,,,,,,,,,,,,,,,,,,,,,,,,,,,,,,,,,,,,,,,,,,,,,,,,,,,,,,,754.092,0,1.058,,,,,,,,,,,,,,,,,,,,,,,,,,,,,,,,,